File: samples/Diffrac-ATuxd.UXD
; C:\DIFFDAT1\MK\Auftragsmessungen\Schmeiﬂer\Polymer Glas\2010_12_01\P3HTrr101130_1.raw(Diffrac Plus V1.01 file) converted by XCH V1.0
_FILEVERSION=2
_SAMPLE='P3HTrr101130'
_SITE='Deutschland'
_USER='LS Leichtbaukeramik'
_ATTACHMENTS_CODE=0
_GONIOMETER_RADIUS=250
_FIXED_DIVSLIT=0.600000
_FIXED_SAMPLESLIT=0.000000
_FIXED_DETSLIT=10.5
_MONOCHROMATOR=0
; None
_THIN_FILM='N'
_BETA_FILTER='Y'
_FIXED_ANTISLIT=6.760000
_ANALYZER_CODE=0
; None
_DATEMEASURED='01-Dec-2010 11:00:32'
_WL_UNIT='A'
_WL1=1.540600
_WL2=1.544390
_WL3=1.392220
_WLRATIO=0.500000
_ANODE='Cu'
; (Data for Range number 1)
_DRIVE='2THETA'
_STEPTIME=0.500000
_STEPSIZE=0.020000
_STEPMODE='C'
_START=5.000000
_THETA=3.000000
_2THETA=5.000000
_KHI=0.000000
_PHI=0.000000
_X=0.000000
_Y=0.000000
_Z=0.000000
_DIVERGENCE=0.499000
_ANTISCATTER=0.499000
_DETECTOR=1
; S.C.
_HV=671
_GAIN=80
_LLD=0.600000
_ULD=1.800000
_DETECTORSLIT='unkn'
_AUX1=0.000000
_AUX2=0.000000
_AUX3=0.000000
_TIMESTARTED=19
_TEMP_RATE=-1.000000
_TEMP_DELAY=-1.000000
_KV=40
_MA=40
_RANGE_WL=1.540600
_3DPLANE=0
_2THETACOUNTS
5.0000	2552
5.0600	3244
5.1200	3375
5.1800	3279
5.2400	3674
5.3000	4912
5.3600	4621
5.4200	4852
5.4800	4448
5.5400	3910
5.6000	3274
5.6600	3266
5.7200	2354
5.7800	1956
5.8400	1573
5.9000	1662
5.9600	1161
6.0200	1128
6.0800	961
6.1400	1059
6.2000	833
6.2600	802
6.3200	796
6.3800	760
6.4400	704
6.5000	706
6.5600	628
6.6200	680
6.6800	654
6.7400	607
6.8000	598
6.8600	591
6.9200	585
6.9800	621
7.0400	574
7.1000	489
7.1600	555
7.2200	540
7.2800	518
7.3400	508
7.4000	526
7.4600	514
7.5200	477
7.5800	505
7.6400	485
7.7000	481
7.7600	467
7.8200	486
7.8800	503
7.9400	483
8.0000	526
8.0600	440
8.1200	491
8.1800	496
8.2400	441
8.3000	482
8.3600	472
8.4200	450
8.4800	444
8.5400	542
8.6000	514
8.6600	511
8.7200	504
8.7800	523
8.8400	539
8.9000	529
8.9600	561
9.0200	588
9.0800	615
9.1400	610
9.2000	594
9.2600	617
9.3200	677
9.3800	569
9.4400	607
9.5000	591
9.5600	626
9.6200	557
9.6800	569
9.7400	642
9.8000	594
9.8600	614
9.9200	549
9.9800	630
10.0400	582
10.1000	566
10.1600	555
10.2200	610
10.2800	575
10.3400	605
10.4000	607
10.4600	656
10.5200	703
10.5800	622
10.6400	614
10.7000	717
10.7600	612
10.8200	695
10.8800	618
10.9400	657
11.0000	615
11.0600	605
11.1200	550
11.1800	511
11.2400	470
11.3000	449
11.3600	419
11.4200	426
11.4800	437
11.5400	421
11.6000	369
11.6600	364
11.7200	340
11.7800	378
11.8400	329
11.9000	336
11.9600	316
12.0200	314
12.0800	284
12.1400	279
12.2000	289
12.2600	321
12.3200	269
12.3800	315
12.4400	318
12.5000	283
12.5600	276
12.6200	251
12.6800	262
12.7400	257
12.8000	264
12.8600	255
12.9200	246
12.9800	271
13.0400	227
13.1000	265
13.1600	285
13.2200	253
13.2800	267
13.3400	224
13.4000	240
13.4600	241
13.5200	216
13.5800	268
13.6400	254
13.7000	278
13.7600	219
13.8200	218
13.8800	239
13.9400	248
14.0000	243
14.0600	266
14.1200	247
14.1800	271
14.2400	256
14.3000	272
14.3600	250
14.4200	262
14.4800	285
14.5400	253
14.6000	296
14.6600	304
14.7200	293
14.7800	282
14.8400	254
14.9000	295
14.9600	288
15.0200	271
15.0800	287
15.1400	272
15.2000	324
15.2600	305
15.3200	303
15.3800	294
15.4400	293
15.5000	321
15.5600	323
15.6200	334
15.6800	342
15.7400	359
15.8000	344
15.8600	366
15.9200	344
15.9800	387
16.0400	365
16.1000	413
16.1600	363
16.2200	401
16.2800	397
16.3400	398
16.4000	368
16.4600	378
16.5200	378
16.5800	378
16.6400	351
16.7000	335
16.7600	367
16.8200	340
16.8800	311
16.9400	313
17.0000	310
17.0600	278
17.1200	306
17.1800	303
17.2400	283
17.3000	296
17.3600	295
17.4200	288
17.4800	257
17.5400	288
17.6000	290
17.6600	277
17.7200	269
17.7800	279
17.8400	272
17.9000	275
17.9600	240
18.0200	278
18.0800	288
18.1400	271
18.2000	261
18.2600	272
18.3200	266
18.3800	272
18.4400	254
18.5000	270
18.5600	277
18.6200	280
18.6800	257
18.7400	296
18.8000	285
18.8600	273
18.9200	290
18.9800	298
19.0400	307
19.1000	315
19.1600	272
19.2200	287
19.2800	305
19.3400	289
19.4000	294
19.4600	289
19.5200	281
19.5800	305
19.6400	269
19.7000	316
19.7600	262
19.8200	290
19.8800	306
19.9400	326
20.0000	289
20.0600	281
20.1200	322
20.1800	337
20.2400	285
20.3000	286
20.3600	320
20.4200	301
20.4800	333
20.5400	309
20.6000	295
20.6600	301
20.7200	330
20.7800	340
20.8400	281
20.9000	288
20.9600	305
21.0200	317
21.0800	321
21.1400	276
21.2000	320
21.2600	313
21.3200	349
21.3800	346
21.4400	345
21.5000	324
21.5600	333
21.6200	332
21.6800	319
21.7400	333
21.8000	292
21.8600	308
21.9200	303
21.9800	332
22.0400	352
22.1000	339
22.1600	291
22.2200	361
22.2800	310
22.3400	337
22.4000	308
22.4600	300
22.5200	316
22.5800	306
22.6400	354
22.7000	300
22.7600	350
22.8200	324
22.8800	308
22.9400	333
23.0000	329
23.0600	304
23.1200	334
23.1800	307
23.2400	337
23.3000	331
23.3600	309
23.4200	296
23.4800	340
23.5400	301
23.6000	311
23.6600	331
23.7200	350
23.7800	331
23.8400	281
23.9000	320
23.9600	283
24.0200	293
24.0800	347
24.1400	324
24.2000	291
24.2600	337
24.3200	304
24.3800	322
24.4400	322
24.5000	286
24.5600	308
24.6200	356
24.6800	313
24.7400	288
24.8000	279
24.8600	313
24.9200	295
24.9800	293
25.0400	288
25.1000	316
25.1600	294
25.2200	300
25.2800	260
25.3400	299
25.4000	305
25.4600	275
25.5200	298
25.5800	341
25.6400	301
25.7000	319
25.7600	272
25.8200	300
25.8800	297
25.9400	283
26.0000	290
26.0600	311
26.1200	278
26.1800	278
26.2400	262
26.3000	308
26.3600	277
26.4200	262
26.4800	285
26.5400	287
26.6000	289
26.6600	284
26.7200	261
26.7800	263
26.8400	308
26.9000	280
26.9600	276
27.0200	281
27.0800	294
27.1400	269
27.2000	270
27.2600	272
27.3200	314
27.3800	306
27.4400	295
27.5000	302
27.5600	278
27.6200	247
27.6800	285
27.7400	305
27.8000	251
27.8600	254
27.9200	253
27.9800	283
28.0400	239
28.1000	235
28.1600	258
28.2200	258
28.2800	249
28.3400	250
28.4000	253
28.4600	247
28.5200	244
28.5800	253
28.6400	269
28.7000	237
28.7600	207
28.8200	232
28.8800	254
28.9400	261
29.0000	222
29.0600	274
29.1200	265
29.1800	232
29.2400	227
29.3000	273
29.3600	270
29.4200	238
29.4800	215
29.5400	231
29.6000	236
29.6600	199
29.7200	221
29.7800	247
29.8400	276
29.9000	246
29.9600	227
30.0200	268
30.0800	237
30.1400	285
30.2000	287
30.2600	318
30.3200	380
30.3800	366
30.4400	324
30.5000	381
30.5600	376
30.6200	307
30.6800	263
30.7400	292
30.8000	251
30.8600	210
30.9200	200
30.9800	235
31.0400	203
31.1000	214
31.1600	202
31.2200	217
31.2800	239
31.3400	191
31.4000	193
31.4600	233
31.5200	198
31.5800	178
31.6400	221
31.7000	210
31.7600	197
31.8200	200
31.8800	226
31.9400	209
32.0000	227
32.0600	192
32.1200	227
32.1800	233
32.2400	177
32.3000	166
32.3600	197
32.4200	195
32.4800	164
32.5400	151
32.6000	197
32.6600	220
32.7200	178
32.7800	167
32.8400	195
32.9000	215
32.9600	181
33.0200	147
33.0800	151
33.1400	199
33.2000	156
33.2600	157
33.3200	171
33.3800	197
33.4400	157
33.5000	161
33.5600	188
33.6200	178
33.6800	160
33.7400	175
33.8000	186
33.8600	189
33.9200	161
33.9800	182
34.0400	194
34.1000	166
34.1600	166
34.2200	181
34.2800	177
34.3400	155
34.4000	169
34.4600	140
34.5200	150
34.5800	158
34.6400	149
34.7000	139
34.7600	152
34.8200	188
34.8800	156
34.9400	173
35.0000	176
35.0600	159
35.1200	179
35.1800	219
35.2400	207
35.3000	192
35.3600	233
35.4200	231
35.4800	218
35.5400	175
35.6000	181
35.6600	176
35.7200	185
35.7800	160
35.8400	124
35.9000	151
35.9600	140
36.0200	142
36.0800	130
36.1400	152
36.2000	132
36.2600	140
36.3200	144
36.3800	122
36.4400	126
36.5000	119
36.5600	114
36.6200	130
36.6800	135
36.7400	120
36.8000	117
36.8600	141
36.9200	127
36.9800	132
37.0400	133
37.1000	127
37.1600	120
37.2200	140
37.2800	136
37.3400	144
37.4000	149
37.4600	116
37.5200	124
37.5800	155
37.6400	114
37.7000	111
37.7600	144
37.8200	129
37.8800	126
37.9400	133
38.0000	129
38.0600	116
38.1200	131
38.1800	110
38.2400	125
38.3000	125
38.3600	107
38.4200	115
38.4800	156
38.5400	125
38.6000	128
38.6600	122
38.7200	133
38.7800	116
38.8400	110
38.9000	120
38.9600	118
39.0200	109
39.0800	116
39.1400	144
39.2000	138
39.2600	113
39.3200	124
39.3800	108
39.4400	116
39.5000	121
39.5600	106
39.6200	128
39.6800	138
39.7400	106
39.8000	97
39.8600	126
39.9200	111
39.9800	110
40.0400	115
40.1000	108
40.1600	133
40.2200	133
40.2800	129
40.3400	132
40.4000	127
40.4600	117
40.5200	119
40.5800	98
40.6400	103
40.7000	122
40.7600	116
40.8200	102
40.8800	115
40.9400	113
41.0000	98
41.0600	134
41.1200	112
41.1800	104
41.2400	112
41.3000	119
41.3600	118
41.4200	112
41.4800	125
41.5400	111
41.6000	123
41.6600	89
41.7200	113
41.7800	120
41.8400	121
41.9000	98
41.9600	107
42.0200	110
42.0800	96
42.1400	127
42.2000	108
42.2600	103
42.3200	111
42.3800	103
42.4400	122
42.5000	117
42.5600	116
42.6200	111
42.6800	110
42.7400	98
42.8000	111
42.8600	104
42.9200	95
42.9800	109
43.0400	105
43.1000	112
43.1600	94
43.2200	109
43.2800	114
43.3400	104
43.4000	97
43.4600	115
43.5200	112
43.5800	94
43.6400	101
43.7000	120
43.7600	102
43.8200	69
43.8800	111
43.9400	87
44.0000	96
44.0600	108
44.1200	94
44.1800	98
44.2400	99
44.3000	99
44.3600	99
44.4200	100
44.4800	89
44.5400	93
44.6000	111
44.6600	116
44.7200	78
44.7800	93
44.8400	78
44.9000	117
44.9600	90
45.0200	99
45.0800	89
45.1400	105
45.2000	80
45.2600	105
45.3200	113
45.3800	100
45.4400	112
45.5000	104
45.5600	117
45.6200	133
45.6800	101
45.7400	112
45.8000	94
45.8600	94
45.9200	88
45.9800	111
46.0400	96
46.1000	110
46.1600	93
46.2200	92
46.2800	106
46.3400	93
46.4000	81
46.4600	99
46.5200	105
46.5800	90
46.6400	66
46.7000	107
46.7600	80
46.8200	98
46.8800	82
46.9400	77
47.0000	105
47.0600	93
47.1200	77
47.1800	98
47.2400	86
47.3000	90
47.3600	73
47.4200	85
47.4800	102
47.5400	85
47.6000	81
47.6600	92
47.7200	78
47.7800	94
47.8400	88
47.9000	106
47.9600	96
48.0200	88
48.0800	100
48.1400	83
48.2000	75
48.2600	77
48.3200	88
48.3800	92
48.4400	101
48.5000	86
48.5600	93
48.6200	85
48.6800	90
48.7400	93
48.8000	96
48.8600	82
48.9200	84
48.9800	81
49.0400	87
49.1000	91
49.1600	74
49.2200	84
49.2800	89
49.3400	88
49.4000	62
49.4600	78
49.5200	74
49.5800	98
49.6400	80
49.7000	83
49.7600	81
49.8200	90
49.8800	65
49.9400	80
50.0000	82
50.0600	79
50.1200	77
50.1800	69
50.2400	95
50.3000	97
50.3600	91
50.4200	111
50.4800	101
50.5400	94
50.6000	98
50.6600	140
50.7200	142
50.7800	116
50.8400	125
50.9000	102
50.9600	111
51.0200	95
51.0800	73
51.1400	88
51.2000	86
51.2600	87
51.3200	90
51.3800	80
51.4400	85
51.5000	79
51.5600	76
51.6200	83
51.6800	86
51.7400	66
51.8000	88
51.8600	72
51.9200	71
51.9800	85
52.0400	71
52.1000	76
52.1600	81
52.2200	77
52.2800	71
52.3400	80
52.4000	84
52.4600	81
52.5200	70
52.5800	69
52.6400	81
52.7000	80
52.7600	78
52.8200	88
52.8800	87
52.9400	82
53.0000	71
53.0600	75
53.1200	59
53.1800	73
53.2400	66
53.3000	78
53.3600	77
53.4200	80
53.4800	91
53.5400	77
53.6000	77
53.6600	84
53.7200	93
53.7800	85
53.8400	69
53.9000	76
53.9600	82
54.0200	74
54.0800	83
54.1400	81
54.2000	90
54.2600	79
54.3200	85
54.3800	67
54.4400	73
54.5000	75
54.5600	63
54.6200	69
54.6800	71
54.7400	70
54.8000	63
54.8600	72
54.9200	72
54.9800	65
55.0400	67
55.1000	63
55.1600	66
55.2200	84
55.2800	80
55.3400	67
55.4000	85
55.4600	47
55.5200	68
55.5800	87
55.6400	90
55.7000	65
55.7600	69
55.8200	74
55.8800	79
55.9400	58
56.0000	61
56.0600	70
56.1200	75
56.1800	53
56.2400	95
56.3000	58
56.3600	84
56.4200	62
56.4800	83
56.5400	81
56.6000	75
56.6600	49
56.7200	75
56.7800	70
56.8400	74
56.9000	64
56.9600	65
57.0200	80
57.0800	62
57.1400	61
57.2000	66
57.2600	67
57.3200	70
57.3800	61
57.4400	64
57.5000	76
57.5600	78
57.6200	69
57.6800	53
57.7400	69
57.8000	77
57.8600	51
57.9200	53
57.9800	67
58.0400	65
58.1000	75
58.1600	63
58.2200	64
58.2800	68
58.3400	71
58.4000	76
58.4600	69
58.5200	84
58.5800	68
58.6400	73
58.7000	74
58.7600	72
58.8200	86
58.8800	73
58.9400	70
59.0000	66
59.0600	63
59.1200	73
59.1800	77
59.2400	64
59.3000	58
59.3600	68
59.4200	80
59.4800	64
59.5400	61
59.6000	67
59.6600	70
59.7200	52
59.7800	70
59.8400	73
59.9000	79
59.9600	79
60.0200	82
60.0800	69
60.1400	74
60.2000	73
60.2600	89
60.3200	84
60.3800	82
60.4400	90
60.5000	89
60.5600	109
60.6200	76
60.6800	91
60.7400	65
60.8000	65
60.8600	67
60.9200	71
60.9800	69
61.0400	63
61.1000	64
61.1600	70
61.2200	59
61.2800	63
61.3400	61
61.4000	56
61.4600	50
61.5200	63
61.5800	53
61.6400	65
61.7000	66
61.7600	72
61.8200	62
61.8800	63
61.9400	56
62.0000	67
62.0600	57
62.1200	59
62.1800	51
62.2400	58
62.3000	54
62.3600	64
62.4200	53
62.4800	52
62.5400	56
62.6000	45
62.6600	56
62.7200	60
62.7800	65
62.8400	77
62.9000	63
62.9600	77
63.0200	61
63.0800	58
63.1400	53
63.2000	49
63.2600	62
63.3200	57
63.3800	57
63.4400	57
63.5000	52
63.5600	66
63.6200	65
63.6800	44
63.7400	52
63.8000	60
63.8600	51
63.9200	45
63.9800	63
64.0400	61
64.1000	68
64.1600	59
64.2200	58
64.2800	58
64.3400	55
64.4000	64
64.4600	54
64.5200	51
64.5800	57
64.6400	55
64.7000	58
64.7600	63
64.8200	59
64.8800	56
64.9400	54
65.0000	71
65.0600	67
65.1200	55
65.1800	47
65.2400	65
65.3000	56
65.3600	55
65.4200	42
65.4800	41
65.5400	60
65.6000	56
65.6600	50
65.7200	49
65.7800	50
65.8400	44
65.9000	51
65.9600	54
66.0200	57
66.0800	57
66.1400	58
66.2000	48
66.2600	48
66.3200	55
66.3800	53
66.4400	49
66.5000	49
66.5600	46
66.6200	49
66.6800	63
66.7400	49
66.8000	59
66.8600	54
66.9200	52
66.9800	54
67.0400	52
67.1000	52
67.1600	55
67.2200	53
67.2800	46
67.3400	61
67.4000	51
67.4600	53
67.5200	46
67.5800	61
67.6400	52
67.7000	40
67.7600	49
67.8200	53
67.8800	62
67.9400	52
68.0000	36
68.0600	57
68.1200	47
68.1800	46
68.2400	54
68.3000	45
68.3600	44
68.4200	43
68.4800	37
68.5400	44
68.6000	49
68.6600	34
68.7200	41
68.7800	50
68.8400	47
68.9000	54
68.9600	47
69.0200	39
69.0800	56
69.1400	46
69.2000	48
69.2600	50
69.3200	42
69.3800	44
69.4400	45
69.5000	57
69.5600	46
69.6200	55
69.6800	45
69.7400	58
69.8000	34
69.8600	53
69.9200	55
69.9800	53
70.0400	42
70.1000	53
70.1600	46
70.2200	40
70.2800	43
70.3400	41
70.4000	47
70.4600	40
70.5200	42
70.5800	47
70.6400	43
70.7000	48
70.7600	44
70.8200	45
70.8800	44
70.9400	47
71.0000	45
71.0600	50
71.1200	46
71.1800	50
71.2400	37
71.3000	44
71.3600	52
71.4200	54
71.4800	43
71.5400	43
71.6000	37
71.6600	51
71.7200	43
71.7800	52
71.8400	44
71.9000	36
71.9600	42
72.0200	43
72.0800	39
72.1400	38
72.2000	44
72.2600	32
72.3200	34
72.3800	40
72.4400	45
72.5000	47
72.5600	39
72.6200	53
72.6800	46
72.7400	36
72.8000	43
72.8600	43
72.9200	43
72.9800	54
73.0400	48
73.1000	42
73.1600	41
73.2200	45
73.2800	44
73.3400	43
73.4000	41
73.4600	50
73.5200	34
73.5800	44
73.6400	45
73.7000	36
73.7600	48
73.8200	38
73.8800	33
73.9400	42
74.0000	46
74.0600	45
74.1200	39
74.1800	40
74.2400	37
74.3000	41
74.3600	34
74.4200	47
74.4800	44
74.5400	34
74.6000	36
74.6600	38
74.7200	45
74.7800	32
74.8400	36
74.9000	42
74.9600	40
75.0200	39
75.0800	44
75.1400	53
75.2000	42
75.2600	36
75.3200	39
75.3800	29
75.4400	31
75.5000	23
75.5600	28
75.6200	37
75.6800	32
75.7400	34
75.8000	37
75.8600	25
75.9200	33
75.9800	40
76.0400	41
76.1000	31
76.1600	44
76.2200	40
76.2800	48
76.3400	49
76.4000	41
76.4600	30
76.5200	30
76.5800	34
76.6400	42
76.7000	34
76.7600	34
76.8200	46
76.8800	39
76.9400	37
77.0000	27
77.0600	37
77.1200	36
77.1800	33
77.2400	35
77.3000	35
77.3600	42
77.4200	41
77.4800	31
77.5400	38
77.6000	27
77.6600	37
77.7200	32
77.7800	38
77.8400	36
77.9000	34
77.9600	29
78.0200	19
78.0800	25
78.1400	38
78.2000	30
78.2600	33
78.3200	40
78.3800	34
78.4400	22
78.5000	33
78.5600	47
78.6200	47
78.6800	36
78.7400	34
78.8000	32
78.8600	39
78.9200	36
78.9800	36
79.0400	33
79.1000	28
79.1600	28
79.2200	34
79.2800	26
79.3400	38
79.4000	36
79.4600	22
79.5200	25
79.5800	32
79.6400	34
79.7000	23
79.7600	37
79.8200	36
79.8800	23
79.9400	31
80.0000	26
80.0600	24
80.1200	44
80.1800	31
80.2400	31
80.3000	32
80.3600	39
80.4200	35
80.4800	29
80.5400	24
80.6000	20
80.6600	24
80.7200	27
80.7800	30
80.8400	22
80.9000	30
80.9600	34
81.0200	31
81.0800	22
81.1400	27
81.2000	47
81.2600	26
81.3200	24
81.3800	33
81.4400	33
81.5000	31
81.5600	25
81.6200	30
81.6800	28
81.7400	31
81.8000	20
81.8600	23
81.9200	30
81.9800	39
82.0400	36
82.1000	28
82.1600	35
82.2200	25
82.2800	37
82.3400	17
82.4000	28
82.4600	36
82.5200	28
82.5800	33
82.6400	30
82.7000	26
82.7600	20
82.8200	39
82.8800	37
82.9400	42
83.0000	34
83.0600	24
83.1200	32
83.1800	30
83.2400	25
83.3000	34
83.3600	29
83.4200	32
83.4800	33
83.5400	26
83.6000	28
83.6600	29
83.7200	32
83.7800	27
83.8400	29
83.9000	22
83.9600	25
84.0200	38
84.0800	27
84.1400	25
84.2000	28
84.2600	37
84.3200	24
84.3800	35
84.4400	21
84.5000	21
84.5600	24
84.6200	24
84.6800	21
84.7400	34
84.8000	31
84.8600	29
84.9200	28
84.9800	21
85.0400	22
85.1000	37
85.1600	28
85.2200	35
85.2800	18
85.3400	30
85.4000	29
85.4600	25
85.5200	21
85.5800	35
85.6400	29
85.7000	27
85.7600	37
85.8200	29
85.8800	24
85.9400	24
86.0000	24
86.0600	19
86.1200	27
86.1800	30
86.2400	32
86.3000	21
86.3600	27
86.4200	36
86.4800	21
86.5400	24
86.6000	25
86.6600	10
86.7200	25
86.7800	27
86.8400	26
86.9000	35
86.9600	32
87.0200	28
87.0800	27
87.1400	25
87.2000	18
87.2600	27
87.3200	30
87.3800	17
87.4400	25
87.5000	19
87.5600	34
87.6200	30
87.6800	14
87.7400	21
87.8000	17
87.8600	19
87.9200	17
87.9800	19
88.0400	30
88.1000	26
88.1600	15
88.2200	26
88.2800	22
88.3400	32
88.4000	30
88.4600	22
88.5200	26
88.5800	27
88.6400	29
88.7000	32
88.7600	24
88.8200	24
88.8800	33
88.9400	33
89.0000	19
89.0600	19
89.1200	22
89.1800	21
89.2400	32
89.3000	23
89.3600	18
89.4200	23
89.4800	21
89.5400	21
89.6000	22
89.6600	28
89.7200	22
89.7800	29
89.8400	24
89.9000	24
89.9600	24
90.0000	22